ACCELEROMETER X (m/s²),ACCELEROMETER Y (m/s²),ACCELEROMETER Z (m/s²),PROXIMITY (i),SOUND LEVEL (dB),LOCATION Latitude : ,LOCATION Longitude : ,LOCATION Altitude ( m),LOCATION Altitude-google ( m),LOCATION Speed ( Kmh),LOCATION Accuracy ( m),LOCATION ORIENTATION (°),Satellites in range,Time since start in ms ,YYYY-MO-DD HH-MI-SS_SSS
-0.41659,3.96001,8.66701,8.0,60.8755,,,,NaN,,,,0 / 0,24,2022-03-18 12:15:34:930
1.97761,-0.35913,9.99819,8.0,64.0218,,,,NaN,,,,0 / 0,524,2022-03-18 12:15:35:430
0.50278,-0.15802,11.10431,8.0,61.1474,,,,NaN,,,,0 / 0,1024,2022-03-18 12:15:35:930
0.06704,-0.02394,9.97424,8.0,60.3232,,,,NaN,,,,0 / 0,1523,2022-03-18 12:15:36:429
-0.08619,0.13886,10.23282,8.0,54.9709,,,,NaN,,,,0 / 0,2024,2022-03-18 12:15:36:930
-0.7039,-0.13886,10.27591,8.0,64.3087,,,,NaN,,,,0 / 0,2524,2022-03-18 12:15:37:430
-0.23942,0.21548,10.07959,8.0,62.981,,,,NaN,,,,0 / 0,3024,2022-03-18 12:15:37:930
-0.9098,0.16759,9.73961,8.0,60.7976,,,,NaN,,,,0 / 0,3524,2022-03-18 12:15:38:430
-0.6608,0.02394,9.8258,8.0,42.4359,,,,NaN,,,,0 / 0,4024,2022-03-18 12:15:38:930
-1.34554,0.3735,9.66779,8.0,44.4994,,,,NaN,,,,0 / 0,4523,2022-03-18 12:15:39:429
-0.54588,0.29209,9.85453,8.0,62.3399,,,,NaN,,,,0 / 0,5024,2022-03-18 12:15:39:930
-1.27372,0.43574,10.71166,8.0,57.168,,,,NaN,,,,0 / 0,5524,2022-03-18 12:15:40:430
-1.27372,0.16759,9.72046,8.0,67.1736,,,,NaN,,,,0 / 0,6023,2022-03-18 12:15:40:929
-1.09654,0.63686,9.44273,8.0,64.7987,,,,NaN,,,,0 / 0,6524,2022-03-18 12:15:41:430
-1.82917,0.13886,9.16979,8.0,50.8576,,,,NaN,,,,0 / 0,7024,2022-03-18 12:15:41:930
-1.40779,0.05267,9.8689,8.0,60.5518,,,,NaN,,,,0 / 0,7524,2022-03-18 12:15:42:430
0.19632,-0.26815,8.74841,8.0,60.5939,,,,NaN,,,,0 / 0,8023,2022-03-18 12:15:42:929
1.78129,-1.85311,7.69018,8.0,59.3639,,,,NaN,,,,0 / 0,8524,2022-03-18 12:15:43:430
1.52271,0.09577,7.48906,8.0,62.0893,,,,NaN,,,,0 / 0,9024,2022-03-18 12:15:43:930
0.04788,0.09098,9.81144,8.0,63.8635,,,,NaN,,,,0 / 0,9524,2022-03-18 12:15:44:430
0.0431,0.09098,9.71088,8.0,55.224,,,,NaN,,,,0 / 0,10024,2022-03-18 12:15:44:930
0.02394,0.13408,9.79229,8.0,62.3703,,,,NaN,,,,0 / 0,10524,2022-03-18 12:15:45:430
0.02394,0.1245,9.7875,8.0,59.9645,,,,NaN,,,,0 / 0,11024,2022-03-18 12:15:45:930
0.04788,0.10056,9.78271,8.0,53.8446,,,,NaN,,,,0 / 0,11524,2022-03-18 12:15:46:430
0.05267,0.0814,9.81623,8.0,54.3409,,,,NaN,,,,0 / 0,12024,2022-03-18 12:15:46:930
0.03831,0.09577,9.76355,8.0,52.0508,,,,NaN,,,,0 / 0,12523,2022-03-18 12:15:47:429
0.05746,0.11492,9.77313,8.0,49.6964,,,,NaN,,,,0 / 0,13024,2022-03-18 12:15:47:930
0.00958,0.11013,9.79229,8.0,50.6489,,,,NaN,,,,0 / 0,13524,2022-03-18 12:15:48:430
0.03352,0.09098,9.80186,8.0,53.1485,,,,NaN,,,,0 / 0,14024,2022-03-18 12:15:48:930
0.02394,0.10056,9.76834,8.0,54.493,,,,NaN,,,,0 / 0,14524,2022-03-18 12:15:49:430
0.03352,0.13408,9.75398,8.0,58.4325,,,,NaN,,,,0 / 0,15024,2022-03-18 12:15:49:930
0.00479,0.12929,9.77792,8.0,57.5917,,,,NaN,,,,0 / 0,15524,2022-03-18 12:15:50:430
0.00958,0.11013,9.75398,8.0,53.7201,,,,NaN,,,,0 / 0,16024,2022-03-18 12:15:50:930
0.01437,0.11492,9.75398,8.0,58.5992,,,,NaN,,,,0 / 0,16524,2022-03-18 12:15:51:430
0.01437,0.11013,9.81623,8.0,59.5634,,,,NaN,,,,0 / 0,17024,2022-03-18 12:15:51:930
0.02873,0.12929,9.75398,8.0,59.0655,,,,NaN,,,,0 / 0,17524,2022-03-18 12:15:52:430
0.04788,0.11013,9.76355,8.0,54.7275,,,,NaN,,,,0 / 0,18024,2022-03-18 12:15:52:930
0.02394,0.11013,9.76834,8.0,54.4055,,,,NaN,,,,0 / 0,18524,2022-03-18 12:15:53:430
0.03831,0.12929,9.77313,8.0,52.1797,,,,NaN,,,,0 / 0,19024,2022-03-18 12:15:53:930
0.03352,0.11492,9.76355,8.0,47.8974,,,,NaN,,,,0 / 0,19524,2022-03-18 12:15:54:430
0.03831,0.13408,9.76355,8.0,52.4588,,,,NaN,,,,0 / 0,20024,2022-03-18 12:15:54:930
0.03352,0.11013,9.76834,8.0,49.2429,,,,NaN,,,,0 / 0,20524,2022-03-18 12:15:55:430
0.0431,0.11492,9.76834,8.0,55.4953,,,,NaN,,,,0 / 0,21024,2022-03-18 12:15:55:930
0.02873,0.11013,9.80186,8.0,54.0142,,,,NaN,,,,0 / 0,21523,2022-03-18 12:15:56:429
0.01437,0.10534,9.75877,8.0,54.3812,,,,NaN,,,,0 / 0,22024,2022-03-18 12:15:56:930
0.04788,0.09098,9.76355,8.0,54.0604,,,,NaN,,,,0 / 0,22524,2022-03-18 12:15:57:430
0.03352,0.10056,9.76834,8.0,59.2531,,,,NaN,,,,0 / 0,23023,2022-03-18 12:15:57:929
0.03831,0.09577,9.73961,8.0,58.0981,,,,NaN,,,,0 / 0,23524,2022-03-18 12:15:58:430
0.02873,0.11492,9.79229,8.0,57.1742,,,,NaN,,,,0 / 0,24024,2022-03-18 12:15:58:930
0.03352,0.11492,9.77792,8.0,57.2116,,,,NaN,,,,0 / 0,24524,2022-03-18 12:15:59:430
0.02873,0.1245,9.76355,8.0,61.139,,,,NaN,,,,0 / 0,25024,2022-03-18 12:15:59:930
0.05267,0.09577,9.80186,8.0,60.408,,,,NaN,,,,0 / 0,25524,2022-03-18 12:16:00:430
0.01437,0.11492,9.75877,8.0,59.4546,,,,NaN,,,,0 / 0,26024,2022-03-18 12:16:00:930
0.02394,0.10534,9.78271,8.0,50.9637,,,,NaN,,,,0 / 0,26524,2022-03-18 12:16:01:430
0.03831,0.11013,9.78271,8.0,52.3011,,,,NaN,,,,0 / 0,27024,2022-03-18 12:16:01:930
0.00479,0.12929,9.76355,8.0,51.6868,,,,NaN,,,,0 / 0,27524,2022-03-18 12:16:02:430
0.03831,0.10056,9.79707,8.0,57.8476,,,,NaN,,,,0 / 0,28024,2022-03-18 12:16:02:930
0.02873,0.11971,9.76355,8.0,59.1173,,,,NaN,,,,0 / 0,28524,2022-03-18 12:16:03:430
0.01915,0.09577,9.76834,8.0,60.8306,,,,NaN,,,,0 / 0,29024,2022-03-18 12:16:03:930
0.0431,0.1245,9.75398,8.0,55.5782,,,,NaN,,,,0 / 0,29524,2022-03-18 12:16:04:430
0.02394,0.08619,9.77792,8.0,57.7504,,,,NaN,,,,0 / 0,30024,2022-03-18 12:16:04:930
0.02394,0.11013,9.76355,8.0,57.6436,,,,NaN,,,,0 / 0,30524,2022-03-18 12:16:05:430
0.03831,0.11971,9.76834,8.0,55.2194,,,,NaN,,,,0 / 0,31024,2022-03-18 12:16:05:930
0.02394,0.11013,9.7875,8.0,52.25,,,,NaN,,,,0 / 0,31524,2022-03-18 12:16:06:430
0.02394,0.10056,9.74919,8.0,50.4979,,,,NaN,,,,0 / 0,32023,2022-03-18 12:16:06:929
0.03831,0.13408,9.76834,8.0,56.7193,,,,NaN,,,,0 / 0,32524,2022-03-18 12:16:07:430
0.03352,0.12929,9.77313,8.0,54.3222,,,,NaN,,,,0 / 0,33024,2022-03-18 12:16:07:930
0.01915,0.10534,9.79707,8.0,55.1675,,,,NaN,,,,0 / 0,33524,2022-03-18 12:16:08:430
0.02873,0.10534,9.77313,8.0,47.0204,,,,NaN,,,,0 / 0,34024,2022-03-18 12:16:08:930
0.01437,0.10056,9.77313,8.0,52.829,,,,NaN,,,,0 / 0,34524,2022-03-18 12:16:09:430
0.02873,0.10056,9.75398,8.0,45.295,,,,NaN,,,,0 / 0,35024,2022-03-18 12:16:09:930
0.01915,0.09098,9.76355,8.0,33.0712,,,,NaN,,,,0 / 0,35524,2022-03-18 12:16:10:430
0.01437,0.11492,9.77792,8.0,47.8103,,,,NaN,,,,0 / 0,36023,2022-03-18 12:16:10:929
0.02394,0.11971,9.76834,8.0,48.1732,,,,NaN,,,,0 / 0,36524,2022-03-18 12:16:11:430
0.0431,0.10056,9.77313,8.0,46.1602,,,,NaN,,,,0 / 0,37024,2022-03-18 12:16:11:930
0.00958,0.10534,9.7875,8.0,31.8559,,,,NaN,,,,0 / 0,37524,2022-03-18 12:16:12:430
0.05267,0.11492,9.7875,8.0,53.7035,,,,NaN,,,,0 / 0,38024,2022-03-18 12:16:12:930
0.02873,0.11013,9.78271,8.0,53.0733,,,,NaN,,,,0 / 0,38523,2022-03-18 12:16:13:429
0.02394,0.11492,9.76355,8.0,47.8718,,,,NaN,,,,0 / 0,39024,2022-03-18 12:16:13:930
0.0431,0.09577,9.79229,8.0,45.0948,,,,NaN,,,,0 / 0,39524,2022-03-18 12:16:14:430
0.04788,0.11971,9.76355,8.0,39.8849,,,,NaN,,,,0 / 0,40024,2022-03-18 12:16:14:930
0.02394,0.11492,9.79229,8.0,51.4828,,,,NaN,,,,0 / 0,40524,2022-03-18 12:16:15:430
0.01437,0.10534,9.76834,8.0,53.4398,,,,NaN,,,,0 / 0,41024,2022-03-18 12:16:15:930
0.0431,0.11492,9.79229,8.0,47.6097,,,,NaN,,,,0 / 0,41524,2022-03-18 12:16:16:430
0.06704,0.11013,9.77313,8.0,51.1573,,,,NaN,,,,0 / 0,42024,2022-03-18 12:16:16:930
0.03352,0.10056,9.77313,8.0,51.1524,,,,NaN,,,,0 / 0,42524,2022-03-18 12:16:17:430
0.02394,0.11492,9.75877,8.0,50.8296,,,,NaN,,,,0 / 0,43024,2022-03-18 12:16:17:930
0.03352,0.0814,9.8258,8.0,54.8575,,,,NaN,,,,0 / 0,43524,2022-03-18 12:16:18:430
0.0431,0.11971,9.78271,8.0,44.1727,,,,NaN,,,,0 / 0,44024,2022-03-18 12:16:18:930
0.03831,0.11492,9.77792,8.0,55.2213,,,,NaN,,,,0 / 0,44524,2022-03-18 12:16:19:430
0.02873,0.10534,9.76834,8.0,52.5327,,,,NaN,,,,0 / 0,45024,2022-03-18 12:16:19:930
0.03352,0.11013,9.74919,8.0,52.6926,,,,NaN,,,,0 / 0,45524,2022-03-18 12:16:20:430
0.03352,0.1245,9.80186,8.0,57.2988,,,,NaN,,,,0 / 0,46024,2022-03-18 12:16:20:930
0.03352,0.09577,9.7875,8.0,51.9465,,,,NaN,,,,0 / 0,46524,2022-03-18 12:16:21:430
0.0431,0.11971,9.79707,8.0,59.6347,,,,NaN,,,,0 / 0,47024,2022-03-18 12:16:21:930
0.02394,0.1245,9.77313,8.0,56.2137,,,,NaN,,,,0 / 0,47524,2022-03-18 12:16:22:430
0.02394,0.12929,9.79707,8.0,52.2882,,,,NaN,,,,0 / 0,48024,2022-03-18 12:16:22:930
0.03352,0.11013,9.75877,8.0,45.035,,,,NaN,,,,0 / 0,48524,2022-03-18 12:16:23:430
0.01915,0.11013,9.7875,8.0,46.1472,,,,NaN,,,,0 / 0,49024,2022-03-18 12:16:23:930
0.0431,0.12929,9.76834,8.0,57.8055,,,,NaN,,,,0 / 0,49524,2022-03-18 12:16:24:430
0.0431,0.10534,9.76834,8.0,58.0746,,,,NaN,,,,0 / 0,50024,2022-03-18 12:16:24:930
0.05267,0.10056,9.75398,8.0,58.3683,,,,NaN,,,,0 / 0,50524,2022-03-18 12:16:25:430
0.0431,0.1245,9.77313,8.0,51.2959,,,,NaN,,,,0 / 0,51024,2022-03-18 12:16:25:930
0.03831,0.1245,9.76834,8.0,47.2836,,,,NaN,,,,0 / 0,51524,2022-03-18 12:16:26:430
0.03352,0.09098,9.78271,8.0,38.6918,,,,NaN,,,,0 / 0,52024,2022-03-18 12:16:26:930
0.02873,0.11492,9.77313,8.0,55.0178,,,,NaN,,,,0 / 0,52524,2022-03-18 12:16:27:430
0.02394,0.11013,9.75877,8.0,57.2825,,,,NaN,,,,0 / 0,53024,2022-03-18 12:16:27:930
0.02873,0.11013,9.75877,8.0,53.6068,,,,NaN,,,,0 / 0,53524,2022-03-18 12:16:28:430
0.01437,0.11492,9.77792,8.0,56.6136,,,,NaN,,,,0 / 0,54023,2022-03-18 12:16:28:929
0.05267,0.12929,9.79707,8.0,58.9025,,,,NaN,,,,0 / 0,54523,2022-03-18 12:16:29:429
0.02873,0.11971,9.78271,8.0,54.2575,,,,NaN,,,,0 / 0,55023,2022-03-18 12:16:29:929
0.02873,0.07661,9.77313,8.0,59.4578,,,,NaN,,,,0 / 0,55524,2022-03-18 12:16:30:430
0.02873,0.10056,9.77792,8.0,52.4374,,,,NaN,,,,0 / 0,56024,2022-03-18 12:16:30:930
0.03831,0.10056,9.78271,8.0,53.525,,,,NaN,,,,0 / 0,56524,2022-03-18 12:16:31:430
0.03831,0.11013,9.76834,8.0,42.4662,,,,NaN,,,,0 / 0,57024,2022-03-18 12:16:31:930
0.02873,0.10534,9.77792,8.0,46.7063,,,,NaN,,,,0 / 0,57524,2022-03-18 12:16:32:430
0.04788,0.06704,9.77792,8.0,63.3381,,,,NaN,,,,0 / 0,58024,2022-03-18 12:16:32:930
0.05267,0.10534,9.78271,8.0,55.8059,,,,NaN,,,,0 / 0,58524,2022-03-18 12:16:33:430
0.02394,0.1245,9.79229,8.0,63.4223,,,,NaN,,,,0 / 0,59024,2022-03-18 12:16:33:930
0.02394,0.11971,9.76355,8.0,62.1512,,,,NaN,,,,0 / 0,59524,2022-03-18 12:16:34:430
0.03831,0.12929,9.78271,8.0,55.6325,,,,NaN,,,,0 / 0,60024,2022-03-18 12:16:34:930
0.01437,0.14365,9.79707,8.0,46.2572,,,,NaN,,,,0 / 0,60524,2022-03-18 12:16:35:430
0.01915,0.11013,9.77313,8.0,47.4109,,,,NaN,,,,0 / 0,61024,2022-03-18 12:16:35:930
0.02394,0.10534,9.76355,8.0,52.7478,,,,NaN,,,,0 / 0,61524,2022-03-18 12:16:36:430
0.06225,0.11013,9.75398,8.0,53.222,,,,NaN,,,,0 / 0,62024,2022-03-18 12:16:36:930
0.02394,0.11013,9.77792,8.0,55.7181,,,,NaN,,,,0 / 0,62524,2022-03-18 12:16:37:430
0.03352,0.11971,9.77313,8.0,51.9114,,,,NaN,,,,0 / 0,63024,2022-03-18 12:16:37:930
0.06225,0.09098,9.77313,8.0,44.9134,,,,NaN,,,,0 / 0,63524,2022-03-18 12:16:38:430
0.02873,0.09098,9.78271,8.0,50.6667,,,,NaN,,,,0 / 0,64024,2022-03-18 12:16:38:930
0.02873,0.09577,9.77313,8.0,44.0009,,,,NaN,,,,0 / 0,64524,2022-03-18 12:16:39:430
0.04788,0.09098,9.77313,8.0,58.0586,,,,NaN,,,,0 / 0,65024,2022-03-18 12:16:39:930
0.01915,0.11971,9.79707,8.0,66.388,,,,NaN,,,,0 / 0,65524,2022-03-18 12:16:40:430
0.05267,0.10534,9.76834,8.0,28.5825,,,,NaN,,,,0 / 0,66024,2022-03-18 12:16:40:930
0.02873,0.11013,9.76834,8.0,46.9151,,,,NaN,,,,0 / 0,66524,2022-03-18 12:16:41:430
0.03831,0.1245,9.7444,8.0,44.6763,,,,NaN,,,,0 / 0,67024,2022-03-18 12:16:41:930
0.02873,0.11013,9.79707,8.0,45.0006,,,,NaN,,,,0 / 0,67524,2022-03-18 12:16:42:430
0.02394,0.11013,9.78271,8.0,45.9885,,,,NaN,,,,0 / 0,68024,2022-03-18 12:16:42:930
0.03352,0.09577,9.80186,8.0,47.5578,,,,NaN,,,,0 / 0,68524,2022-03-18 12:16:43:430
0.02873,0.07661,9.77792,8.0,50.3793,,,,NaN,,,,0 / 0,69024,2022-03-18 12:16:43:930
0.01437,0.12929,9.75398,8.0,53.5282,,,,NaN,,,,0 / 0,69524,2022-03-18 12:16:44:430
0.01915,0.10056,9.77792,8.0,61.889,,,,NaN,,,,0 / 0,70024,2022-03-18 12:16:44:930
0.03831,0.11013,9.78271,8.0,58.1505,,,,NaN,,,,0 / 0,70524,2022-03-18 12:16:45:430
0.02394,0.10056,9.79229,8.0,55.5339,,,,NaN,,,,0 / 0,71024,2022-03-18 12:16:45:930
0.03352,0.11492,9.75877,8.0,51.4787,,,,NaN,,,,0 / 0,71524,2022-03-18 12:16:46:430
0.06225,0.13408,9.77313,8.0,60.0777,,,,NaN,,,,0 / 0,72023,2022-03-18 12:16:46:929
0.03352,0.10534,9.78271,8.0,51.0789,,,,NaN,,,,0 / 0,72523,2022-03-18 12:16:47:429
0.03831,0.11013,9.76834,8.0,53.5815,,,,NaN,,,,0 / 0,73023,2022-03-18 12:16:47:929
0.0431,0.07183,9.76834,8.0,54.09,,,,NaN,,,,0 / 0,73524,2022-03-18 12:16:48:430
0.05746,0.09577,9.77313,8.0,54.9747,,,,NaN,,,,0 / 0,74024,2022-03-18 12:16:48:930
0.0431,0.1245,9.7875,8.0,62.4428,,,,NaN,,,,0 / 0,74524,2022-03-18 12:16:49:430
0.02873,0.10534,9.77313,8.0,65.1247,,,,NaN,,,,0 / 0,75023,2022-03-18 12:16:49:929
0.05267,0.11013,9.79707,8.0,61.7691,,,,NaN,,,,0 / 0,75523,2022-03-18 12:16:50:429
0.0431,0.11492,9.7875,8.0,54.5206,,,,NaN,,,,0 / 0,76024,2022-03-18 12:16:50:930
0.02873,0.11492,9.79229,8.0,47.451,,,,NaN,,,,0 / 0,76524,2022-03-18 12:16:51:430
0.07183,0.10534,9.7875,8.0,44.797,,,,NaN,,,,0 / 0,77024,2022-03-18 12:16:51:930
0.0431,0.1245,9.77313,8.0,55.9966,,,,NaN,,,,0 / 0,77524,2022-03-18 12:16:52:430
0.01915,0.13408,9.76834,8.0,56.8745,,,,NaN,,,,0 / 0,78024,2022-03-18 12:16:52:930
0.02394,0.11013,9.79707,8.0,56.9795,,,,NaN,,,,0 / 0,78524,2022-03-18 12:16:53:430
0.04788,0.09577,9.79229,8.0,56.3313,,,,NaN,,,,0 / 0,79024,2022-03-18 12:16:53:930
0.04788,0.10534,9.75877,8.0,60.7416,,,,NaN,,,,0 / 0,79524,2022-03-18 12:16:54:430
0.0431,0.09577,9.7875,8.0,51.0493,,,,NaN,,,,0 / 0,80023,2022-03-18 12:16:54:929
0.01915,0.08619,9.76834,8.0,59.0167,,,,NaN,,,,0 / 0,80523,2022-03-18 12:16:55:429
0.01915,0.1245,9.76355,8.0,58.8417,,,,NaN,,,,0 / 0,81024,2022-03-18 12:16:55:930
0.04788,0.1245,9.72525,8.0,57.3509,,,,NaN,,,,0 / 0,81524,2022-03-18 12:16:56:430
0.02394,0.11013,9.78271,8.0,65.3226,,,,NaN,,,,0 / 0,82024,2022-03-18 12:16:56:930
0.03352,0.1245,9.77313,8.0,64.6307,,,,NaN,,,,0 / 0,82524,2022-03-18 12:16:57:430
0.02873,0.09098,9.77313,8.0,44.6561,,,,NaN,,,,0 / 0,83024,2022-03-18 12:16:57:930
0.03352,0.11492,9.79229,8.0,57.1202,,,,NaN,,,,0 / 0,83524,2022-03-18 12:16:58:430
0.03352,0.10534,9.80186,8.0,58.7073,,,,NaN,,,,0 / 0,84024,2022-03-18 12:16:58:930
0.03831,0.11971,9.78271,8.0,46.4,,,,NaN,,,,0 / 0,84524,2022-03-18 12:16:59:430
0.05267,0.10056,9.7444,8.0,52.6235,,,,NaN,,,,0 / 0,85024,2022-03-18 12:16:59:930
0.04788,0.10056,9.78271,8.0,52.7454,,,,NaN,,,,0 / 0,85524,2022-03-18 12:17:00:430
0.04788,0.09577,9.76834,8.0,50.8407,,,,NaN,,,,0 / 0,86024,2022-03-18 12:17:00:930
0.03831,0.12929,9.77792,8.0,61.8417,,,,NaN,,,,0 / 0,86524,2022-03-18 12:17:01:430
0.02394,0.10056,9.79707,8.0,57.2246,,,,NaN,,,,0 / 0,87024,2022-03-18 12:17:01:930
0.0431,0.14365,9.80186,8.0,49.2008,,,,NaN,,,,0 / 0,87523,2022-03-18 12:17:02:429
0.02394,0.1245,9.77792,8.0,56.3242,,,,NaN,,,,0 / 0,88023,2022-03-18 12:17:02:929
0.01915,0.0814,9.77792,8.0,60.8774,,,,NaN,,,,0 / 0,88523,2022-03-18 12:17:03:429
0.03352,0.11013,9.80665,8.0,60.5126,,,,NaN,,,,0 / 0,89024,2022-03-18 12:17:03:930
0.02873,0.11492,9.76355,8.0,54.6706,,,,NaN,,,,0 / 0,89524,2022-03-18 12:17:04:430
0.01915,0.11492,9.76355,8.0,60.3238,,,,NaN,,,,0 / 0,90024,2022-03-18 12:17:04:930
0.03352,0.07183,9.80186,8.0,46.0323,,,,NaN,,,,0 / 0,90524,2022-03-18 12:17:05:430
0.03352,0.11013,9.76834,8.0,44.7156,,,,NaN,,,,0 / 0,91024,2022-03-18 12:17:05:930
0.0431,0.11013,9.79707,8.0,52.9069,,,,NaN,,,,0 / 0,91524,2022-03-18 12:17:06:430
0.00479,0.12929,9.7875,8.0,53.1754,,,,NaN,,,,0 / 0,92024,2022-03-18 12:17:06:930
0.03831,0.11013,9.75398,8.0,50.6803,,,,NaN,,,,0 / 0,92524,2022-03-18 12:17:07:430
0.03352,0.10534,9.77792,8.0,51.5303,,,,NaN,,,,0 / 0,93024,2022-03-18 12:17:07:930
0.03352,0.1245,9.79229,8.0,50.0116,,,,NaN,,,,0 / 0,93524,2022-03-18 12:17:08:430
0.00479,0.13886,9.73482,8.0,52.541,,,,NaN,,,,0 / 0,94024,2022-03-18 12:17:08:930
0.01437,0.10056,9.76834,8.0,52.3592,,,,NaN,,,,0 / 0,94524,2022-03-18 12:17:09:430
0.03352,0.11492,9.79229,8.0,53.8612,,,,NaN,,,,0 / 0,95024,2022-03-18 12:17:09:930
0.02394,0.13408,9.76355,8.0,54.9369,,,,NaN,,,,0 / 0,95524,2022-03-18 12:17:10:430
0.03831,0.09098,9.76355,8.0,55.9935,,,,NaN,,,,0 / 0,96023,2022-03-18 12:17:10:929
0.02873,0.10056,9.79229,8.0,58.8828,,,,NaN,,,,0 / 0,96523,2022-03-18 12:17:11:429
0.03352,0.12929,9.78271,8.0,63.1658,,,,NaN,,,,0 / 0,97024,2022-03-18 12:17:11:930
0.03352,0.0814,9.80665,8.0,61.4748,,,,NaN,,,,0 / 0,97524,2022-03-18 12:17:12:430
0.02873,0.10534,9.7875,8.0,53.8335,,,,NaN,,,,0 / 0,98024,2022-03-18 12:17:12:930
0.03831,0.11492,9.7875,8.0,54.8756,,,,NaN,,,,0 / 0,98524,2022-03-18 12:17:13:430
0.01437,0.13408,9.73482,8.0,53.8097,,,,NaN,,,,0 / 0,99024,2022-03-18 12:17:13:930
0.02873,0.11013,9.76355,8.0,51.4542,,,,NaN,,,,0 / 0,99524,2022-03-18 12:17:14:430
0.01915,0.11492,9.77313,8.0,48.3559,,,,NaN,,,,0 / 0,100023,2022-03-18 12:17:14:929
0.03831,0.11013,9.75398,8.0,50.6014,,,,NaN,,,,0 / 0,100523,2022-03-18 12:17:15:429
0.0431,0.11013,9.74919,8.0,62.1178,,,,NaN,,,,0 / 0,101023,2022-03-18 12:17:15:929
0.02394,0.11492,9.76355,8.0,50.6183,,,,NaN,,,,0 / 0,101523,2022-03-18 12:17:16:429
0.07183,0.09577,9.79707,8.0,52.9915,,,,NaN,,,,0 / 0,102023,2022-03-18 12:17:16:929
0.02873,0.14365,9.75877,8.0,52.6044,,,,NaN,,,,0 / 0,102524,2022-03-18 12:17:17:430
0.04788,0.11971,9.7875,8.0,47.9781,,,,NaN,,,,0 / 0,103024,2022-03-18 12:17:17:930
0.03352,0.10534,9.7875,8.0,61.9488,,,,NaN,,,,0 / 0,103524,2022-03-18 12:17:18:430
0.03831,0.11492,9.80186,8.0,65.7656,,,,NaN,,,,0 / 0,104024,2022-03-18 12:17:18:930
0.01437,0.12929,9.7444,8.0,64.3387,,,,NaN,,,,0 / 0,104524,2022-03-18 12:17:19:430
0.0431,0.13408,9.73482,8.0,62.3703,,,,NaN,,,,0 / 0,105024,2022-03-18 12:17:19:930
0.02873,0.12929,9.76355,8.0,44.9491,,,,NaN,,,,0 / 0,105524,2022-03-18 12:17:20:430
0.01915,0.11492,9.75398,8.0,56.4099,,,,NaN,,,,0 / 0,106024,2022-03-18 12:17:20:930
0.03352,0.1245,9.78271,8.0,62.5677,,,,NaN,,,,0 / 0,106524,2022-03-18 12:17:21:430
0.05267,0.11971,9.83538,8.0,63.8191,,,,NaN,,,,0 / 0,107024,2022-03-18 12:17:21:930
0.04788,0.09098,9.78271,8.0,50.7442,,,,NaN,,,,0 / 0,107524,2022-03-18 12:17:22:430
0.03831,0.09098,9.77792,8.0,48.5122,,,,NaN,,,,0 / 0,108024,2022-03-18 12:17:22:930
0.02873,0.11013,9.79707,8.0,41.2253,,,,NaN,,,,0 / 0,108524,2022-03-18 12:17:23:430
0.02873,0.11492,9.74919,8.0,48.4619,,,,NaN,,,,0 / 0,109024,2022-03-18 12:17:23:930
0.02873,0.10056,9.77792,8.0,62.0015,,,,NaN,,,,0 / 0,109524,2022-03-18 12:17:24:430
0.03831,0.10056,9.79707,8.0,58.1177,,,,NaN,,,,0 / 0,110024,2022-03-18 12:17:24:930
0.04788,0.13408,9.77313,8.0,52.0905,,,,NaN,,,,0 / 0,110524,2022-03-18 12:17:25:430
0.02873,0.08619,9.76834,8.0,43.6521,,,,NaN,,,,0 / 0,111024,2022-03-18 12:17:25:930
0.05746,0.10534,9.7875,8.0,44.7859,,,,NaN,,,,0 / 0,111524,2022-03-18 12:17:26:430
0.06225,0.11013,9.79707,8.0,52.0149,,,,NaN,,,,0 / 0,112024,2022-03-18 12:17:26:930
0.04788,0.1245,9.75877,8.0,51.8089,,,,NaN,,,,0 / 0,112524,2022-03-18 12:17:27:430
0.03831,0.09577,9.75398,8.0,56.3121,,,,NaN,,,,0 / 0,113024,2022-03-18 12:17:27:930
0.01915,0.1245,9.79229,8.0,50.9273,,,,NaN,,,,0 / 0,113523,2022-03-18 12:17:28:429
0.01915,0.1245,9.79229,8.0,50.4988,,,,NaN,,,,0 / 0,114024,2022-03-18 12:17:28:930
0.02394,0.11013,9.78271,8.0,50.2816,,,,NaN,,,,0 / 0,114524,2022-03-18 12:17:29:430
0.04788,0.1245,9.76355,8.0,50.6986,,,,NaN,,,,0 / 0,115024,2022-03-18 12:17:29:930
0.03352,0.10056,9.7875,8.0,51.5803,,,,NaN,,,,0 / 0,115524,2022-03-18 12:17:30:430
0.0431,0.09098,9.77792,8.0,48.4508,,,,NaN,,,,0 / 0,116024,2022-03-18 12:17:30:930
0.03831,0.07661,9.76834,8.0,51.3798,,,,NaN,,,,0 / 0,116524,2022-03-18 12:17:31:430
0.01915,0.10534,9.79707,8.0,52.8864,,,,NaN,,,,0 / 0,117024,2022-03-18 12:17:31:930
0.02873,0.14365,9.76834,8.0,56.4166,,,,NaN,,,,0 / 0,117524,2022-03-18 12:17:32:430
0.02873,0.11492,9.75877,8.0,56.9071,,,,NaN,,,,0 / 0,118024,2022-03-18 12:17:32:930
0.05267,0.13408,9.75877,8.0,54.0136,,,,NaN,,,,0 / 0,118524,2022-03-18 12:17:33:430
0.04788,0.10534,9.75398,8.0,55.7422,,,,NaN,,,,0 / 0,119024,2022-03-18 12:17:33:930
0.02873,0.11013,9.76355,8.0,52.8062,,,,NaN,,,,0 / 0,119523,2022-03-18 12:17:34:429
0.01915,0.10056,9.79707,8.0,51.317,,,,NaN,,,,0 / 0,120024,2022-03-18 12:17:34:930
0.03352,0.11013,9.78271,8.0,50.7308,,,,NaN,,,,0 / 0,120524,2022-03-18 12:17:35:430
0.03352,0.11492,9.77792,8.0,51.5481,,,,NaN,,,,0 / 0,121023,2022-03-18 12:17:35:929
0.03831,0.14365,9.77313,8.0,48.9302,,,,NaN,,,,0 / 0,121523,2022-03-18 12:17:36:429
0.00479,0.09577,9.7875,8.0,53.9499,,,,NaN,,,,0 / 0,122024,2022-03-18 12:17:36:930
0.03831,0.10534,9.7875,8.0,54.8017,,,,NaN,,,,0 / 0,122523,2022-03-18 12:17:37:429
0.02394,0.09098,9.7875,8.0,60.8373,,,,NaN,,,,0 / 0,123023,2022-03-18 12:17:37:929
0.0431,0.10056,9.76355,8.0,57.8711,,,,NaN,,,,0 / 0,123523,2022-03-18 12:17:38:429
0.00958,0.11013,9.77313,8.0,62.6146,,,,NaN,,,,0 / 0,124024,2022-03-18 12:17:38:930
0.03831,0.11013,9.79707,8.0,62.9063,,,,NaN,,,,0 / 0,124524,2022-03-18 12:17:39:430
0.03831,0.11971,9.7444,8.0,49.9023,,,,NaN,,,,0 / 0,125023,2022-03-18 12:17:39:929
0.05267,0.11013,9.73482,8.0,59.9781,,,,NaN,,,,0 / 0,125524,2022-03-18 12:17:40:430
0.02394,0.10056,9.78271,8.0,64.8653,,,,NaN,,,,0 / 0,126024,2022-03-18 12:17:40:930
0.01915,0.11492,9.76834,8.0,63.7586,,,,NaN,,,,0 / 0,126524,2022-03-18 12:17:41:430
0.04788,0.11971,9.79229,8.0,62.1158,,,,NaN,,,,0 / 0,127024,2022-03-18 12:17:41:930
0.02873,0.09577,9.7875,8.0,45.8,,,,NaN,,,,0 / 0,127524,2022-03-18 12:17:42:430
0.00958,0.10056,9.80186,8.0,52.9843,,,,NaN,,,,0 / 0,128024,2022-03-18 12:17:42:930
0.0431,0.1245,9.78271,8.0,53.3488,,,,NaN,,,,0 / 0,128524,2022-03-18 12:17:43:430
0.0431,0.10534,9.79229,8.0,57.1872,,,,NaN,,,,0 / 0,129024,2022-03-18 12:17:43:930
0.05746,0.10056,9.78271,8.0,63.2308,,,,NaN,,,,0 / 0,129524,2022-03-18 12:17:44:430
0.03352,0.07661,9.79229,8.0,59.7518,,,,NaN,,,,0 / 0,130024,2022-03-18 12:17:44:930
0.05267,0.10056,9.76355,8.0,56.7167,,,,NaN,,,,0 / 0,130524,2022-03-18 12:17:45:430
0.0431,0.09577,9.76834,8.0,52.4656,,,,NaN,,,,0 / 0,131024,2022-03-18 12:17:45:930
0.01437,0.08619,9.75398,8.0,48.0575,,,,NaN,,,,0 / 0,131524,2022-03-18 12:17:46:430
0.03352,0.12929,9.75877,8.0,50.7208,,,,NaN,,,,0 / 0,132024,2022-03-18 12:17:46:930
0.02873,0.09577,9.78271,8.0,60.7563,,,,NaN,,,,0 / 0,132524,2022-03-18 12:17:47:430
0.02873,0.12929,9.77792,8.0,54.8857,,,,NaN,,,,0 / 0,133024,2022-03-18 12:17:47:930
0.0431,0.10534,9.77792,8.0,53.7441,,,,NaN,,,,0 / 0,133524,2022-03-18 12:17:48:430
0.02394,0.11492,9.7875,8.0,62.1412,,,,NaN,,,,0 / 0,134024,2022-03-18 12:17:48:930
0.03831,0.11492,9.76834,8.0,56.1231,,,,NaN,,,,0 / 0,134524,2022-03-18 12:17:49:430
0.01915,0.0814,9.80665,8.0,57.7859,,,,NaN,,,,0 / 0,135024,2022-03-18 12:17:49:930
0.02873,0.10056,9.79707,8.0,51.5423,,,,NaN,,,,0 / 0,135524,2022-03-18 12:17:50:430
0.02873,0.10534,9.81623,8.0,47.2069,,,,NaN,,,,0 / 0,136024,2022-03-18 12:17:50:930
0.03352,0.11971,9.78271,8.0,49.2116,,,,NaN,,,,0 / 0,136524,2022-03-18 12:17:51:430
0.01437,0.15323,9.77792,8.0,49.7407,,,,NaN,,,,0 / 0,137024,2022-03-18 12:17:51:930
0.03352,0.10056,9.79707,8.0,46.0224,,,,NaN,,,,0 / 0,137524,2022-03-18 12:17:52:430
0.03352,0.10534,9.7875,8.0,56.2857,,,,NaN,,,,0 / 0,138024,2022-03-18 12:17:52:930
0.02394,0.09577,9.78271,8.0,54.0362,,,,NaN,,,,0 / 0,138524,2022-03-18 12:17:53:430
0.05267,0.1245,9.7875,8.0,47.7661,,,,NaN,,,,0 / 0,139024,2022-03-18 12:17:53:930
0.05746,0.08619,9.80665,8.0,37.3554,,,,NaN,,,,0 / 0,139524,2022-03-18 12:17:54:430
0.04788,0.0814,9.81144,8.0,39.2308,,,,NaN,,,,0 / 0,140024,2022-03-18 12:17:54:930
0.02873,0.1245,9.77792,8.0,57.9033,,,,NaN,,,,0 / 0,140524,2022-03-18 12:17:55:430
0.03831,0.11971,9.80186,8.0,60.882,,,,NaN,,,,0 / 0,141024,2022-03-18 12:17:55:930
0.0431,0.11492,9.76834,8.0,56.2207,,,,NaN,,,,0 / 0,141524,2022-03-18 12:17:56:430
0.03352,0.1245,9.73004,8.0,55.8037,,,,NaN,,,,0 / 0,142024,2022-03-18 12:17:56:930
0.01915,0.11492,9.76355,8.0,52.6203,,,,NaN,,,,0 / 0,142524,2022-03-18 12:17:57:430
0.02873,0.11013,9.78271,8.0,48.5946,,,,NaN,,,,0 / 0,143024,2022-03-18 12:17:57:930
0.03352,0.11492,9.78271,8.0,49.0543,,,,NaN,,,,0 / 0,143524,2022-03-18 12:17:58:430
0.02873,0.10534,9.7875,8.0,44.359,,,,NaN,,,,0 / 0,144024,2022-03-18 12:17:58:930
0.03352,0.11492,9.77792,8.0,46.3909,,,,NaN,,,,0 / 0,144524,2022-03-18 12:17:59:430
0.03352,0.11971,9.77792,8.0,49.7096,,,,NaN,,,,0 / 0,145023,2022-03-18 12:17:59:929
0.02873,0.1245,9.77313,8.0,50.8228,,,,NaN,,,,0 / 0,145524,2022-03-18 12:18:00:430
0.01915,0.09577,9.7875,8.0,57.5934,,,,NaN,,,,0 / 0,146024,2022-03-18 12:18:00:930
0.01915,0.1245,9.78271,8.0,68.7822,,,,NaN,,,,0 / 0,146524,2022-03-18 12:18:01:430
0.02873,0.10534,9.77313,8.0,59.3225,,,,NaN,,,,0 / 0,147024,2022-03-18 12:18:01:930
0.01915,0.11013,9.78271,8.0,55.9108,,,,NaN,,,,0 / 0,147524,2022-03-18 12:18:02:430
0.02873,0.12929,9.7875,8.0,50.9828,,,,NaN,,,,0 / 0,148024,2022-03-18 12:18:02:930
0.00958,0.11492,9.75877,8.0,42.6106,,,,NaN,,,,0 / 0,148524,2022-03-18 12:18:03:430
0.05267,0.09577,9.78271,8.0,44.2255,,,,NaN,,,,0 / 0,149024,2022-03-18 12:18:03:930
0.00958,0.11971,9.75877,8.0,41.6875,,,,NaN,,,,0 / 0,149524,2022-03-18 12:18:04:430
0.01915,0.10534,9.76834,8.0,59.9174,,,,NaN,,,,0 / 0,150023,2022-03-18 12:18:04:929
0.0431,0.13408,9.77313,8.0,52.8302,,,,NaN,,,,0 / 0,150524,2022-03-18 12:18:05:430
0.02873,0.11492,9.77313,8.0,58.9489,,,,NaN,,,,0 / 0,151024,2022-03-18 12:18:05:930
0.01915,0.1245,9.76355,8.0,65.9465,,,,NaN,,,,0 / 0,151524,2022-03-18 12:18:06:430
0.00479,0.11492,9.74919,8.0,62.4738,,,,NaN,,,,0 / 0,152024,2022-03-18 12:18:06:930
0.03352,0.09098,9.77313,8.0,58.8432,,,,NaN,,,,0 / 0,152524,2022-03-18 12:18:07:430
0.02394,0.10056,9.79707,8.0,53.454,,,,NaN,,,,0 / 0,153024,2022-03-18 12:18:07:930
-0.01915,0.05746,9.77313,8.0,57.9017,,,,NaN,,,,0 / 0,153524,2022-03-18 12:18:08:430
0.03352,0.13408,9.77313,8.0,53.6286,,,,NaN,,,,0 / 0,154024,2022-03-18 12:18:08:930
0.01437,0.11492,9.77792,8.0,56.6401,,,,NaN,,,,0 / 0,154524,2022-03-18 12:18:09:430
0.03352,0.13408,9.7875,8.0,51.7363,,,,NaN,,,,0 / 0,155024,2022-03-18 12:18:09:930
0.03831,0.14365,9.75877,8.0,48.3915,,,,NaN,,,,0 / 0,155524,2022-03-18 12:18:10:430
0.02394,0.10056,9.76834,8.0,42.9872,,,,NaN,,,,0 / 0,156023,2022-03-18 12:18:10:929
0.01437,0.11013,9.78271,8.0,49.6548,,,,NaN,,,,0 / 0,156524,2022-03-18 12:18:11:430
0.05267,0.1245,9.7875,8.0,53.5567,,,,NaN,,,,0 / 0,157024,2022-03-18 12:18:11:930
0.02873,0.10534,9.78271,8.0,51.1107,,,,NaN,,,,0 / 0,157524,2022-03-18 12:18:12:430
0.0431,0.11013,9.79229,8.0,50.4169,,,,NaN,,,,0 / 0,158024,2022-03-18 12:18:12:930
0.05746,0.10056,9.79229,8.0,60.4602,,,,NaN,,,,0 / 0,158524,2022-03-18 12:18:13:430
0.05267,0.11492,9.8258,8.0,55.1817,,,,NaN,,,,0 / 0,159024,2022-03-18 12:18:13:930
0.03352,0.10534,9.78271,8.0,51.4269,,,,NaN,,,,0 / 0,159524,2022-03-18 12:18:14:430
0.02394,0.09577,9.7875,8.0,54.1503,,,,NaN,,,,0 / 0,160024,2022-03-18 12:18:14:930
0.0431,0.13408,9.76834,8.0,51.2817,,,,NaN,,,,0 / 0,160524,2022-03-18 12:18:15:430
0.02394,0.11013,9.75877,8.0,62.5967,,,,NaN,,,,0 / 0,161024,2022-03-18 12:18:15:930
0.03831,0.12929,9.75877,8.0,56.0009,,,,NaN,,,,0 / 0,161524,2022-03-18 12:18:16:430
0.05267,0.10534,9.77792,8.0,62.8939,,,,NaN,,,,0 / 0,162024,2022-03-18 12:18:16:930
0.02873,0.11013,9.76834,8.0,57.7019,,,,NaN,,,,0 / 0,162524,2022-03-18 12:18:17:430
0.0431,0.10056,9.79707,8.0,56.5067,,,,NaN,,,,0 / 0,163024,2022-03-18 12:18:17:930
0.0431,0.11013,9.77313,8.0,56.2977,,,,NaN,,,,0 / 0,163524,2022-03-18 12:18:18:430
0.03352,0.10056,9.79707,8.0,60.2833,,,,NaN,,,,0 / 0,164024,2022-03-18 12:18:18:930
0.06225,0.11013,9.77792,8.0,58.0111,,,,NaN,,,,0 / 0,164524,2022-03-18 12:18:19:430
0.04788,0.10056,9.75877,8.0,58.88,,,,NaN,,,,0 / 0,165024,2022-03-18 12:18:19:930
0.01915,0.11971,9.77313,8.0,60.883,,,,NaN,,,,0 / 0,165524,2022-03-18 12:18:20:430
0.03831,0.09098,9.77313,8.0,59.767,,,,NaN,,,,0 / 0,166024,2022-03-18 12:18:20:930
0.03352,0.13408,9.77313,8.0,63.4009,,,,NaN,,,,0 / 0,166524,2022-03-18 12:18:21:430
0.0431,0.11492,9.7875,8.0,60.0046,,,,NaN,,,,0 / 0,167024,2022-03-18 12:18:21:930
0.00958,0.06225,9.80186,8.0,60.8639,,,,NaN,,,,0 / 0,167524,2022-03-18 12:18:22:430
0.01915,0.11971,9.77313,8.0,60.095,,,,NaN,,,,0 / 0,168024,2022-03-18 12:18:22:930
0.0431,0.11971,9.77313,8.0,59.9663,,,,NaN,,,,0 / 0,168524,2022-03-18 12:18:23:430
0.02394,0.11971,9.77313,8.0,53.8148,,,,NaN,,,,0 / 0,169024,2022-03-18 12:18:23:930
0.02873,0.10056,9.79229,8.0,63.765,,,,NaN,,,,0 / 0,169524,2022-03-18 12:18:24:430
0.03831,0.10534,9.82102,8.0,65.7948,,,,NaN,,,,0 / 0,170024,2022-03-18 12:18:24:930
0.02873,0.11492,9.76355,8.0,57.7539,,,,NaN,,,,0 / 0,170524,2022-03-18 12:18:25:430
0.05267,0.11013,9.76834,8.0,63.3634,,,,NaN,,,,0 / 0,171024,2022-03-18 12:18:25:930
0.03352,0.09577,9.7875,8.0,52.2874,,,,NaN,,,,0 / 0,171524,2022-03-18 12:18:26:430
0.01915,0.11492,9.75877,8.0,65.0338,,,,NaN,,,,0 / 0,172024,2022-03-18 12:18:26:930
0.03831,0.10056,9.77792,8.0,61.069,,,,NaN,,,,0 / 0,172524,2022-03-18 12:18:27:430
0.02394,0.11971,9.78271,8.0,56.8738,,,,NaN,,,,0 / 0,173024,2022-03-18 12:18:27:930
0.05746,0.11492,9.7875,8.0,56.5574,,,,NaN,,,,0 / 0,173524,2022-03-18 12:18:28:430
0.03831,0.09577,9.77313,8.0,63.7458,,,,NaN,,,,0 / 0,174024,2022-03-18 12:18:28:930
0.03352,0.09577,9.7444,8.0,63.6855,,,,NaN,,,,0 / 0,174524,2022-03-18 12:18:29:430
0.03352,0.11971,9.76834,8.0,61.0273,,,,NaN,,,,0 / 0,175024,2022-03-18 12:18:29:930
0.0431,0.10056,9.77792,8.0,60.0705,,,,NaN,,,,0 / 0,175523,2022-03-18 12:18:30:429
0.03352,0.11492,9.7444,8.0,64.0503,,,,NaN,,,,0 / 0,176024,2022-03-18 12:18:30:930
0.06225,0.11013,9.77313,8.0,67.0005,,,,NaN,,,,0 / 0,176524,2022-03-18 12:18:31:430
0.05267,0.10056,9.78271,8.0,48.5891,,,,NaN,,,,0 / 0,177024,2022-03-18 12:18:31:930
0.02394,0.11013,9.7875,8.0,57.2647,,,,NaN,,,,0 / 0,177524,2022-03-18 12:18:32:430
0.05267,0.11013,9.83059,8.0,55.2649,,,,NaN,,,,0 / 0,178024,2022-03-18 12:18:32:930
2.00155,-0.1245,16.36676,8.0,54.0308,,,,NaN,,,,0 / 0,178524,2022-03-18 12:18:33:430
-2.27449,-2.72939,9.72046,8.0,65.3326,,,,NaN,,,,0 / 0,179023,2022-03-18 12:18:33:929
0.85234,1.38385,9.32302,8.0,63.1044,,,,NaN,,,,0 / 0,179524,2022-03-18 12:18:34:430
-0.17717,1.62806,8.63828,8.0,59.8156,,,,NaN,,,,0 / 0,180024,2022-03-18 12:18:34:930
-1.48919,0.97683,9.30866,8.0,48.5818,,,,NaN,,,,0 / 0,180524,2022-03-18 12:18:35:430